trials.thisRepN,trials.thisTrialN,trials.thisN,trials.thisIndex,Fixation.started,key_resp.started,Fixation.stopped,key_resp.keys,key_resp.corr,key_resp.rt,key_resp.duration,tilt,participant,session,date,expName,psychopyVersion,frameRate,
0,0,0,0,12.875687042000209,13.868747958999847,13.87483233399962,up,0,0.903467166000155,None,-4,1,001,2023-09-08_18h30.41.203,orient_discrimination,2023.1.3,None,
1,0,1,0,14.872416500000327,15.803952750000462,15.87125508400004,down,0,0.5040444159994877,None,0,1,001,2023-09-08_18h30.41.203,orient_discrimination,2023.1.3,None,
2,0,2,0,16.325937042000078,17.311574833999657,17.321300667000287,down,0,0.31381354099994496,None,0,1,001,2023-09-08_18h30.41.203,orient_discrimination,2023.1.3,None,
3,0,3,0,17.650841249999758,18.62943841699962,18.642135500000222,down,1,0.3654962489999889,None,1,1,001,2023-09-08_18h30.41.203,orient_discrimination,2023.1.3,None,
4,0,4,0,19.02173466699969,20.00420912499976,20.01079970899991,down,0,0.4336005409995778,None,0,1,001,2023-09-08_18h30.41.203,orient_discrimination,2023.1.3,None,
5,0,5,0,20.455289249999623,21.437724999999773,21.44385987500027,down,1,0.41302916600034223,None,1,1,001,2023-09-08_18h30.41.203,orient_discrimination,2023.1.3,None,
6,0,6,0,21.870323250000183,22.854317000000265,22.86038120900048,down,1,0.4022023329998774,None,1,1,001,2023-09-08_18h30.41.203,orient_discrimination,2023.1.3,None,
7,0,7,0,23.27658679199976,24.263336834000256,24.271064958999887,down,1,0.3278544579998197,None,3,1,001,2023-09-08_18h30.41.203,orient_discrimination,2023.1.3,None,
8,0,8,0,24.609482208999907,25.595147166999595,25.604548416999933,up,0,0.4323567500005083,None,-4,1,001,2023-09-08_18h30.41.203,orient_discrimination,2023.1.3,None,
9,0,9,0,26.042929584000376,27.029191042000093,27.03785708400028,down,1,0.39012124899909395,None,-2,1,001,2023-09-08_18h30.41.203,orient_discrimination,2023.1.3,None,
10,0,10,0,27.43769175000034,28.421461834000183,28.42734287500025,up,1,0.30055074999927456,None,0,1,001,2023-09-08_18h30.41.203,orient_discrimination,2023.1.3,None,
11,0,11,0,28.73869429200022,29.721331333999842,29.72783129199979,down,0,0.36230820799937646,None,0,1,001,2023-09-08_18h30.41.203,orient_discrimination,2023.1.3,None,
12,0,12,0,30.105497542000194,31.088004541999908,31.093954375000067,down,0,0.32120416599991586,None,0,1,001,2023-09-08_18h30.41.203,orient_discrimination,2023.1.3,None,
13,0,13,0,31.426759541999672,32.41296912500002,32.421408791999966,up,1,0.3923898749990258,None,0,1,001,2023-09-08_18h30.41.203,orient_discrimination,2023.1.3,None,
14,0,14,0,32.82249945900003,33.804818624999825,33.822144708999986,up,0,0.26674645799903374,None,-5,1,001,2023-09-08_18h30.41.203,orient_discrimination,2023.1.3,None,
15,0,15,0,34.08734179200019,35.071552958999746,35.07738179199987,down,1,0.27509741599988047,None,-4,1,001,2023-09-08_18h30.41.203,orient_discrimination,2023.1.3,None,
16,0,16,0,35.371297292000236,36.35548512500009,36.36151141699975,down,1,0.45375029099977837,None,2,1,001,2023-09-08_18h30.41.203,orient_discrimination,2023.1.3,None,
17,0,17,0,36.82666683400021,37.813576458999705,37.82175866699981,down,0,0.2999885409999479,None,0,1,001,2023-09-08_18h30.41.203,orient_discrimination,2023.1.3,None,
18,0,18,0,38.13809516699985,39.12189649999982,39.12822324999979,up,1,0.45032158300000447,None,0,1,001,2023-09-08_18h30.41.203,orient_discrimination,2023.1.3,None,
19,0,19,0,39.58838050000031,40.57180458400035,40.577812874999836,down,1,0.47127858200019546,None,2,1,001,2023-09-08_18h30.41.203,orient_discrimination,2023.1.3,None,
20,0,20,0,41.06108854200011,42.04707795899958,42.05527454200001,up,0,0.44454591599969717,None,-3,1,001,2023-09-08_18h30.41.203,orient_discrimination,2023.1.3,None,
21,0,21,0,42.509838083999966,43.496973084000274,43.50536637500045,down,0,0.5323514989995601,None,0,1,001,2023-09-08_18h30.41.203,orient_discrimination,2023.1.3,None,
22,0,22,0,44.05502008399981,45.038863583999955,45.04482408399963,down,1,0.4840198749998308,None,4,1,001,2023-09-08_18h30.41.203,orient_discrimination,2023.1.3,None,
23,0,23,0,45.53975904199979,46.52212099999997,46.52856716699989,down,1,0.35094074999960867,None,4,1,001,2023-09-08_18h30.41.203,orient_discrimination,2023.1.3,None,
24,0,24,0,46.89010374999998,47.8721001670001,47.88940158399964,down,1,0.32654579100017145,None,-4,1,001,2023-09-08_18h30.41.203,orient_discrimination,2023.1.3,None,
25,0,25,0,48.222210292000455,49.20576862500002,49.21184274999996,up,0,0.6001036249999743,None,1,1,001,2023-09-08_18h30.41.203,orient_discrimination,2023.1.3,None,
26,0,26,0,49.823123916999975,50.80557904200032,50.81211862500004,down,1,0.5912157080001634,None,4,1,001,2023-09-08_18h30.41.203,orient_discrimination,2023.1.3,None,
27,0,27,0,51.4232239590001,52.4056901670001,52.41154291699968,up,1,0.4123299160000897,None,0,1,001,2023-09-08_18h30.41.203,orient_discrimination,2023.1.3,None,
28,0,28,0,52.83890529200016,53.822430459000316,53.82848854199983,up,1,0.3452199989997098,None,0,1,001,2023-09-08_18h30.41.203,orient_discrimination,2023.1.3,None,
29,0,29,0,54.188780958999814,55.17242524999983,55.178374459000224,up,1,0.4299907490003534,None,0,1,001,2023-09-08_18h30.41.203,orient_discrimination,2023.1.3,None,
30,0,30,0,55.62369908399978,56.60580991700044,56.623060791999706,up,0,0.316117874000156,None,3,1,001,2023-09-08_18h30.41.203,orient_discrimination,2023.1.3,None,
31,0,31,0,56.93966179200015,57.92268524999963,57.92907283400018,down,1,0.36681579099968076,None,4,1,001,2023-09-08_18h30.41.203,orient_discrimination,2023.1.3,None,
32,0,32,0,58.3061702089999,59.28928675000043,59.29600916700019,down,1,0.2710315829990577,None,1,1,001,2023-09-08_18h30.41.203,orient_discrimination,2023.1.3,None,
33,0,33,0,59.57726395900045,60.562913083999774,60.573248124999736,up,1,0.29403666599955613,None,0,1,001,2023-09-08_18h30.41.203,orient_discrimination,2023.1.3,None,
34,0,34,0,60.87400433400035,61.856122125000184,61.87328187500043,up,1,0.27141608300007647,None,0,1,001,2023-09-08_18h30.41.203,orient_discrimination,2023.1.3,None,
35,0,35,0,62.14432816699991,63.12977024999964,63.139985374999924,down,1,0.5447308329994485,None,-4,1,001,2023-09-08_18h30.41.203,orient_discrimination,2023.1.3,None,
36,0,36,0,63.693910750000214,64.6808925839996,64.68947025000034,up,0,0.4488662489993658,None,-3,1,001,2023-09-08_18h30.41.203,orient_discrimination,2023.1.3,None,
37,0,37,0,65.14484870900014,66.13082725000004,66.13958199999979,up,1,0.33369958299954305,None,0,1,001,2023-09-08_18h30.41.203,orient_discrimination,2023.1.3,None,
38,0,38,0,66.49039612500019,67.62953350000043,67.62953350000043,up,1,0.32680183200045576,None,0,1,001,2023-09-08_18h30.41.203,orient_discrimination,2023.1.3,None,
39,0,39,0,67.97338808400036,68.95662445899961,68.96254429199962,up,0,0.28309629100021994,None,-3,1,001,2023-09-08_18h30.41.203,orient_discrimination,2023.1.3,None,
40,0,40,0,69.25670283399995,70.23970487499992,70.24606529199991,down,1,0.35515833199951885,None,1,1,001,2023-09-08_18h30.41.203,orient_discrimination,2023.1.3,None,
41,0,41,0,70.61184854200019,71.59859683400009,71.60649854199983,up,0,0.27489945700017415,None,-3,1,001,2023-09-08_18h30.41.203,orient_discrimination,2023.1.3,None,
42,0,42,0,71.8894929170001,72.873241667,72.87914437499967,up,1,0.27964016599980823,None,0,1,001,2023-09-08_18h30.41.203,orient_discrimination,2023.1.3,None,
43,0,43,0,73.17272966699966,74.15652054200018,74.16234950000035,down,1,0.6691494579999926,None,-5,1,001,2023-09-08_18h30.41.203,orient_discrimination,2023.1.3,None,
44,0,44,0,74.84517145900008,75.83156308399975,75.84001637500023,down,1,0.44556399900011456,None,4,1,001,2023-09-08_18h30.41.203,orient_discrimination,2023.1.3,None,
45,0,45,0,76.29442162499981,77.28213845899973,77.29002008400039,down,1,0.36244587500004855,None,3,1,001,2023-09-08_18h30.41.203,orient_discrimination,2023.1.3,None,
46,0,46,0,77.66143112499958,78.6474694589997,78.6573157089997,down,0,0.3389145000001008,None,0,1,001,2023-09-08_18h30.41.203,orient_discrimination,2023.1.3,None,
47,0,47,0,79.00695524999992,79.99009058400043,79.99596875000043,up,1,0.2996941239998705,None,0,1,001,2023-09-08_18h30.41.203,orient_discrimination,2023.1.3,None,
48,0,48,0,80.30670900000041,81.29047283399996,81.29640912499963,up,1,0.4036757490002856,None,0,1,001,2023-09-08_18h30.41.203,orient_discrimination,2023.1.3,None,
49,0,49,0,81.71144379199995,82.69864250000046,82.70689066700015,up,0,0.34225129100013874,None,-4,1,001,2023-09-08_18h30.41.203,orient_discrimination,2023.1.3,None,
50,0,50,0,83.05823849999979,84.04034750000028,84.05724174999978,down,1,0.3206435829997645,None,3,1,001,2023-09-08_18h30.41.203,orient_discrimination,2023.1.3,None,
51,0,51,0,84.3783479169997,85.36608970900033,85.37375175000034,up,0,0.5821090829995228,None,-2,1,001,2023-09-08_18h30.41.203,orient_discrimination,2023.1.3,None,
52,0,52,0,85.97374033400047,86.95704591699996,86.96344041700013,down,1,0.2580236249996233,None,-2,1,001,2023-09-08_18h30.41.203,orient_discrimination,2023.1.3,None,
53,0,53,0,87.2405169169997,88.22384666699963,88.22979512500024,up,0,0.36274479099938617,None,-5,1,001,2023-09-08_18h30.41.203,orient_discrimination,2023.1.3,None,
54,0,54,0,88.60663237500012,89.59047429200018,89.59653970900035,up,1,0.6755062490001364,None,0,1,001,2023-09-08_18h30.41.203,orient_discrimination,2023.1.3,None,
55,0,55,0,90.29147770899999,91.27402999999958,91.27998358399964,down,1,0.34975124900029186,None,1,1,001,2023-09-08_18h30.41.203,orient_discrimination,2023.1.3,None,
56,0,56,0,91.6407322089999,92.62423391700031,92.63015104199985,up,0,0.47501679099968896,None,-4,1,001,2023-09-08_18h30.41.203,orient_discrimination,2023.1.3,None,
57,0,57,0,93.12398462500005,94.10766700000022,94.11375383399991,up,1,0.3001879999992525,None,0,1,001,2023-09-08_18h30.41.203,orient_discrimination,2023.1.3,None,
58,0,58,0,94.42382670900042,95.40749912499996,95.41365804199995,up,0,0.4006510409999464,None,-4,1,001,2023-09-08_18h30.41.203,orient_discrimination,2023.1.3,None,
59,0,59,0,95.82510875000025,96.80749483399995,96.81332991700037,up,1,0.37071041599938326,None,0,1,001,2023-09-08_18h30.41.203,orient_discrimination,2023.1.3,None,
60,0,60,0,97.19525833399985,98.18248791699989,98.19090662500003,up,1,0.6364365409999664,None,0,1,001,2023-09-08_18h30.41.203,orient_discrimination,2023.1.3,None,
61,0,61,0,98.84090445899983,99.8243466670001,99.83042158399985,up,1,0.39625958200031164,None,0,1,001,2023-09-08_18h30.41.203,orient_discrimination,2023.1.3,None,
62,0,62,0,100.24074970899983,101.2243714590004,101.23032704199977,down,1,0.4507301240000743,None,4,1,001,2023-09-08_18h30.41.203,orient_discrimination,2023.1.3,None,
63,0,63,0,101.69129733400041,102.67465533399991,102.68057933399996,up,0,0.4784294580003916,None,-3,1,001,2023-09-08_18h30.41.203,orient_discrimination,2023.1.3,None,
64,0,64,0,103.17487908400017,104.15777695900033,104.16379066700028,up,1,0.4193246659997385,None,0,1,001,2023-09-08_18h30.41.203,orient_discrimination,2023.1.3,None,
65,0,65,0,104.59691674999976,105.5832843750004,105.59113125000022,up,0,0.37668770700020104,None,-4,1,001,2023-09-08_18h30.41.203,orient_discrimination,2023.1.3,None,
66,0,66,0,105.98015879200011,106.96524725000017,106.975110417,down,1,0.3967647079998642,None,1,1,001,2023-09-08_18h30.41.203,orient_discrimination,2023.1.3,None,
67,0,67,0,107.37921366699993,108.36651566700039,108.37461541700031,up,0,0.4381001659994581,None,-5,1,001,2023-09-08_18h30.41.203,orient_discrimination,2023.1.3,None,
68,0,68,0,108.8254266670001,109.80809008400047,109.81499008399987,down,1,0.5859625820003203,None,3,1,001,2023-09-08_18h30.41.203,orient_discrimination,2023.1.3,None,
69,0,69,0,110.41451200000029,111.39995499999986,111.40806216700003,up,0,0.46828666599958524,None,-4,1,001,2023-09-08_18h30.41.203,orient_discrimination,2023.1.3,None,
70,0,70,0,111.89213350000045,112.8751161250002,112.8815249170002,down,1,0.38418158300009964,None,1,1,001,2023-09-08_18h30.41.203,orient_discrimination,2023.1.3,None,
71,0,71,0,113.2797461250002,114.266919959,114.27493270899959,up,1,0.4920675410003241,None,0,1,001,2023-09-08_18h30.41.203,orient_discrimination,2023.1.3,None,
72,0,72,0,114.77622570899985,115.75856541699977,115.76454058400031,up,0,0.5163974569995844,None,-3,1,001,2023-09-08_18h30.41.203,orient_discrimination,2023.1.3,None,
73,0,73,0,116.29148554200037,117.27498500000002,117.28105933400002,down,0,0.48434033199919213,None,0,1,001,2023-09-08_18h30.41.203,orient_discrimination,2023.1.3,None,
74,0,74,0,117.77605929200035,118.75833341700036,118.7756894590002,up,1,0.5481554580001102,None,0,1,001,2023-09-08_18h30.41.203,orient_discrimination,2023.1.3,None,
75,0,75,0,119.32638504199986,120.30858400000034,120.32537916700039,down,1,0.569783832000212,None,-4,1,001,2023-09-08_18h30.41.203,orient_discrimination,2023.1.3,None,
76,0,76,0,120.8957490419998,121.88265366700034,121.89212129200041,down,0,0.4651180410000961,None,0,1,001,2023-09-08_18h30.41.203,orient_discrimination,2023.1.3,None,
77,0,77,0,122.3639370840001,123.34933504200035,123.3588678340002,up,0,0.4532945410001048,None,-4,1,001,2023-09-08_18h30.41.203,orient_discrimination,2023.1.3,None,
78,0,78,0,123.82543258399983,124.80876887500017,124.81483670899979,down,1,0.7426401659995463,None,-3,1,001,2023-09-08_18h30.41.203,orient_discrimination,2023.1.3,None,
79,0,79,0,125.57548954200047,126.5588176250003,126.56470650000028,up,1,0.8863490409994483,None,0,1,001,2023-09-08_18h30.41.203,orient_discrimination,2023.1.3,None,
80,0,80,0,127.46317845900012,128.45064316699973,128.4587716670003,up,1,0.5167001240006357,None,0,1,001,2023-09-08_18h30.41.203,orient_discrimination,2023.1.3,None,
81,0,81,0,128.99280275,129.97560341700046,129.9815613339997,up,0,0.4340252080000937,None,-2,1,001,2023-09-08_18h30.41.203,orient_discrimination,2023.1.3,None,
82,0,82,0,130.42687041699992,131.40902729200025,131.42585804200007,up,1,0.4370242490003875,None,0,1,001,2023-09-08_18h30.41.203,orient_discrimination,2023.1.3,None,
83,0,83,0,131.8645484589997,132.849628209,132.8594702090004,up,0,0.39133229100025346,None,-3,1,001,2023-09-08_18h30.41.203,orient_discrimination,2023.1.3,None,
84,0,84,0,133.25915620900014,134.24249654200048,134.24848399999973,up,1,0.4883864999992511,None,0,1,001,2023-09-08_18h30.41.203,orient_discrimination,2023.1.3,None,
85,0,85,0,134.74816399999963,135.73447133399986,135.74249658400004,up,0,0.5368599160001395,None,1,1,001,2023-09-08_18h30.41.203,orient_discrimination,2023.1.3,None,
86,0,86,0,136.29200750000018,137.2760185420002,137.28234945900022,down,1,0.45357579099982104,None,3,1,001,2023-09-08_18h30.41.203,orient_discrimination,2023.1.3,None,
87,0,87,0,137.747614334,138.73323591700046,138.7431121669997,up,1,0.576201707999644,None,0,1,001,2023-09-08_18h30.41.203,orient_discrimination,2023.1.3,None,
88,0,88,0,139.32615754200015,140.30930474999968,140.31523037500028,up,1,0.5649352489999728,None,0,1,001,2023-09-08_18h30.41.203,orient_discrimination,2023.1.3,None,
89,0,89,0,140.89335120899977,141.87605595900004,141.88204808400042,down,1,0.5502272499998071,None,3,1,001,2023-09-08_18h30.41.203,orient_discrimination,2023.1.3,None,
90,0,90,0,142.44226266700025,143.42608841699985,143.43200549999983,up,1,0.5669397909996405,None,0,1,001,2023-09-08_18h30.41.203,orient_discrimination,2023.1.3,None,
91,0,91,0,144.01007904200014,144.99298341699978,144.99898637499973,up,1,0.5023504159998993,None,0,1,001,2023-09-08_18h30.41.203,orient_discrimination,2023.1.3,None,
92,0,92,0,145.51351262499975,146.50070125000002,146.50962400000026,up,1,0.4099099160002879,None,0,1,001,2023-09-08_18h30.41.203,orient_discrimination,2023.1.3,None,
93,0,93,0,146.93142154199995,147.91827283400016,147.92615037500036,down,1,0.4882867910000641,None,4,1,001,2023-09-08_18h30.41.203,orient_discrimination,2023.1.3,None,
94,0,94,0,148.42717829200046,149.40973458400003,149.41584287499973,up,0,0.4414414160000888,None,-5,1,001,2023-09-08_18h30.41.203,orient_discrimination,2023.1.3,None,
95,0,95,0,149.87756858400007,150.85968804200002,150.8770286250001,down,0,0.6688555410000845,None,0,1,001,2023-09-08_18h30.41.203,orient_discrimination,2023.1.3,None,
96,0,96,0,151.54738212499979,152.5349269999997,152.54303804200026,down,1,0.44257824899978004,None,4,1,001,2023-09-08_18h30.41.203,orient_discrimination,2023.1.3,None,
97,0,97,0,152.99314320899975,153.97672925000006,153.98334258399973,up,0,0.5899860829995305,None,1,1,001,2023-09-08_18h30.41.203,orient_discrimination,2023.1.3,None,
98,0,98,0,154.59358270899975,155.57648970900027,155.58244045900028,down,1,0.44414366599994537,None,2,1,001,2023-09-08_18h30.41.203,orient_discrimination,2023.1.3,None,
99,0,99,0,156.04260983400036,157.02679799999987,157.03261566699985,up,1,0.6838835829994423,None,0,1,001,2023-09-08_18h30.41.203,orient_discrimination,2023.1.3,None,
100,0,100,0,157.72751637500005,158.70999374999974,158.71605550000004,down,1,0.6246826240003429,None,-5,1,001,2023-09-08_18h30.41.203,orient_discrimination,2023.1.3,None,
101,0,101,0,159.360180959,160.34397920900028,160.34994254200046,down,1,0.742313166000713,None,4,1,001,2023-09-08_18h30.41.203,orient_discrimination,2023.1.3,None,
102,0,102,0,161.11090345899993,162.09386945900042,162.0998541250001,down,1,0.42915099900073983,None,1,1,001,2023-09-08_18h30.41.203,orient_discrimination,2023.1.3,None,
103,0,103,0,162.54325241700008,163.52709279200008,163.53304870900047,up,1,0.5010003329998653,None,0,1,001,2023-09-08_18h30.41.203,orient_discrimination,2023.1.3,None,
104,0,104,0,164.04889474999982,165.03581304199997,165.04359883400048,down,1,0.5449231660004443,None,-5,1,001,2023-09-08_18h30.41.203,orient_discrimination,2023.1.3,None,
105,0,105,0,165.59804104199975,166.58419312499973,166.59419362500012,up,1,0.5670050409999021,None,0,1,001,2023-09-08_18h30.41.203,orient_discrimination,2023.1.3,None,
106,0,106,0,167.1746169170001,168.1603480419999,168.16639645899977,up,0,0.4631135820000054,None,-2,1,001,2023-09-08_18h30.41.203,orient_discrimination,2023.1.3,None,
107,0,107,0,168.64389595900047,169.62737187499988,169.63397437500043,up,1,0.7790410409998003,None,0,1,001,2023-09-08_18h30.41.203,orient_discrimination,2023.1.3,None,
108,0,108,0,170.42783466699984,171.4106419589998,171.4167332500001,up,1,0.37500879100025486,None,0,1,001,2023-09-08_18h30.41.203,orient_discrimination,2023.1.3,None,
109,0,109,0,171.81097112499992,172.79394074999982,172.79996208400007,up,1,0.4966201239994916,None,0,1,001,2023-09-08_18h30.41.203,orient_discrimination,2023.1.3,None,
110,0,110,0,173.31094845900043,174.2939233750003,174.29992250000032,up,1,0.4280172910002875,None,0,1,001,2023-09-08_18h30.41.203,orient_discrimination,2023.1.3,None,
111,0,111,0,174.74476004200005,175.72758816700025,175.7336420419997,up,0,0.990663582999332,None,1,1,001,2023-09-08_18h30.41.203,orient_discrimination,2023.1.3,None,
112,0,112,0,176.74378012499983,177.7274156249996,177.73335554200003,down,0,0.6908214579998457,None,0,1,001,2023-09-08_18h30.41.203,orient_discrimination,2023.1.3,None,
113,0,113,0,178.44472395899993,179.42775087500013,179.43425591699997,down,0,0.5271900820007431,None,0,1,001,2023-09-08_18h30.41.203,orient_discrimination,2023.1.3,None,
114,0,114,0,179.9776995000002,180.96085891700022,180.9667191669996,down,0,0.693225082999561,None,0,1,001,2023-09-08_18h30.41.203,orient_discrimination,2023.1.3,None,
115,0,115,0,181.67832562500007,182.66098979199978,182.6672215839999,up,0,0.47308745800000906,None,1,1,001,2023-09-08_18h30.41.203,orient_discrimination,2023.1.3,None,
116,0,116,0,183.14952229200026,184.1350184590001,184.14476420899973,up,1,0.4893335830001888,None,0,1,001,2023-09-08_18h30.41.203,orient_discrimination,2023.1.3,None,
117,0,117,0,184.64492274999975,185.62768962500013,185.63368400000036,up,1,0.4379429580003489,None,0,1,001,2023-09-08_18h30.41.203,orient_discrimination,2023.1.3,None,
118,0,118,0,186.08331666699996,187.06905962499968,187.07780995899975,down,1,0.9282882910001717,None,-3,1,001,2023-09-08_18h30.41.203,orient_discrimination,2023.1.3,None,
119,0,119,0,188.01722929199968,189.00327595900035,189.01120274999994,up,0,0.694955748999746,None,2,1,001,2023-09-08_18h30.41.203,orient_discrimination,2023.1.3,None,
120,0,120,0,189.7180308750003,190.70172787499996,190.71166058400013,up,0,0.6432510000004186,None,1,1,001,2023-09-08_18h30.41.203,orient_discrimination,2023.1.3,None,
121,0,121,0,191.3615075839998,192.3448050420002,192.35126349999973,up,0,0.4760911250004938,None,3,1,001,2023-09-08_18h30.41.203,orient_discrimination,2023.1.3,None,
122,0,122,0,192.84471258400026,193.82817266700022,193.83412204199976,down,1,0.6142639990002863,None,4,1,001,2023-09-08_18h30.41.203,orient_discrimination,2023.1.3,None,
123,0,123,0,194.46252000000004,195.44496195900047,195.45096241700048,up,0,0.5667869580001934,None,3,1,001,2023-09-08_18h30.41.203,orient_discrimination,2023.1.3,None,
124,0,124,0,196.02818891700008,197.01180637499965,197.01780637499996,up,1,1.0890459989996089,None,0,1,001,2023-09-08_18h30.41.203,orient_discrimination,2023.1.3,None,
125,0,125,0,198.1168855420001,199.10344675000033,199.11153641700002,down,1,0.7447840409995479,None,-3,1,001,2023-09-08_18h30.41.203,orient_discrimination,2023.1.3,None,
126,0,126,0,199.86652516699996,200.8535965000001,200.86162620899995,up,0,0.8080774999998539,None,1,1,001,2023-09-08_18h30.41.203,orient_discrimination,2023.1.3,None,
127,0,127,0,201.67909337499987,202.66185874999974,202.66783466699962,up,1,0.5593215830003828,None,0,1,001,2023-09-08_18h30.41.203,orient_discrimination,2023.1.3,None,
128,0,128,0,203.24544908400003,204.22840229200028,204.23433670899976,up,1,0.6122258739997051,None,0,1,001,2023-09-08_18h30.41.203,orient_discrimination,2023.1.3,None,
129,0,129,0,204.86278595899967,205.8453674170005,205.8518610000001,down,1,0.6332570409995242,None,4,1,001,2023-09-08_18h30.41.203,orient_discrimination,2023.1.3,None,
130,0,130,0,206.49475579200043,207.478907875,207.48542266700042,up,0,0.7364711660002285,None,2,1,001,2023-09-08_18h30.41.203,orient_discrimination,2023.1.3,None,
131,0,131,0,208.23310795900034,209.220082584,209.22865395900044,up,1,0.4716630829998394,None,0,1,001,2023-09-08_18h30.41.203,orient_discrimination,2023.1.3,None,
132,0,132,0,209.71193250000033,210.6954340000002,210.70143041699976,down,1,0.6171561660003135,None,4,1,001,2023-09-08_18h30.41.203,orient_discrimination,2023.1.3,None,
133,0,133,0,211.329411875,212.31219966699973,212.3181919589997,up,0,0.5823012909995668,None,1,1,001,2023-09-08_18h30.41.203,orient_discrimination,2023.1.3,None,
134,0,134,0,213.20785808399978,213.98716595899987,214.20077616700019,up,1,0.48998441599906073,None,0,1,001,2023-09-08_18h30.41.203,orient_discrimination,2023.1.3,None,
135,0,135,0,214.4954831670002,215.47896025000045,215.48534699999982,up,0,0.4044426239997847,None,-2,1,001,2023-09-08_18h30.41.203,orient_discrimination,2023.1.3,None,
136,0,136,0,215.89995595900018,216.88748037500045,216.89560729200002,down,1,0.6331411659994046,None,2,1,001,2023-09-08_18h30.41.203,orient_discrimination,2023.1.3,None,
137,0,137,0,217.54531220900026,218.52900262500043,218.53546112500044,down,1,0.5594179159998021,None,-3,1,001,2023-09-08_18h30.41.203,orient_discrimination,2023.1.3,None,
138,0,138,0,219.11253362499974,220.09582595899974,220.1019248749999,down,1,0.5588444570003048,None,2,1,001,2023-09-08_18h30.41.203,orient_discrimination,2023.1.3,None,
139,0,139,0,220.67928579199997,221.66252983400045,221.6684905840002,down,1,0.6343595829994229,None,-4,1,001,2023-09-08_18h30.41.203,orient_discrimination,2023.1.3,None,
140,0,140,0,222.31401341699984,223.2958502499996,223.3130898749996,down,1,0.41830466600004,None,-5,1,001,2023-09-08_18h30.41.203,orient_discrimination,2023.1.3,None,
141,0,141,0,223.73375158399995,224.72121366700048,224.72923441700004,down,0,0.4108165829993595,None,0,1,001,2023-09-08_18h30.41.203,orient_discrimination,2023.1.3,None,
142,0,142,0,225.15050916699965,226.13705674999983,226.14602491700043,up,1,0.37589216599917563,None,0,1,001,2023-09-08_18h30.41.203,orient_discrimination,2023.1.3,None,
143,0,143,0,226.52970854199975,227.51273700000002,227.51883683400047,up,1,0.5363990409996404,None,0,1,001,2023-09-08_18h30.41.203,orient_discrimination,2023.1.3,None,
144,0,144,0,228.0683664170001,229.05384225000034,229.06278099999963,down,1,0.4795431659995302,None,4,1,001,2023-09-08_18h30.41.203,orient_discrimination,2023.1.3,None,
145,0,145,0,229.55037016700044,230.53817574999994,230.5461075000003,down,1,1.1094335409998166,None,-2,1,001,2023-09-08_18h30.41.203,orient_discrimination,2023.1.3,None,
146,0,146,0,231.66706754200004,232.65473429200028,232.66297416700036,up,1,0.7329081660000156,None,0,1,001,2023-09-08_18h30.41.203,orient_discrimination,2023.1.3,None,
147,0,147,0,233.41351825000038,234.39629954199972,234.40225541699965,down,1,0.5515931660002025,None,4,1,001,2023-09-08_18h30.41.203,orient_discrimination,2023.1.3,None,
148,0,148,0,234.96761533399967,235.95439316699958,235.96302387499964,up,1,0.611948916000074,None,0,1,001,2023-09-08_18h30.41.203,orient_discrimination,2023.1.3,None,
149,0,149,0,236.58401487500032,237.57043779200012,237.58029774999977,up,1,0.666496623999592,None,0,1,001,2023-09-08_18h30.41.203,orient_discrimination,2023.1.3,None,
150,0,150,0,238.25310095900022,239.23855295900012,239.2464060000002,up,1,0.5175176239999928,None,0,1,001,2023-09-08_18h30.41.203,orient_discrimination,2023.1.3,None,
151,0,151,0,239.77935408400026,240.76315925000017,240.76921433400003,up,0,0.5294966239998757,None,1,1,001,2023-09-08_18h30.41.203,orient_discrimination,2023.1.3,None,
152,0,152,0,241.31438395900022,242.29655929199998,242.3138385000002,up,0,0.5168542080000407,None,1,1,001,2023-09-08_18h30.41.203,orient_discrimination,2023.1.3,None,
153,0,153,0,242.8309397920002,243.8133924169997,243.81930133399965,up,1,0.5051992499993503,None,0,1,001,2023-09-08_18h30.41.203,orient_discrimination,2023.1.3,None,
154,0,154,0,244.33414733399968,245.3222249170003,245.33007516700036,down,1,0.47581316600007995,None,1,1,001,2023-09-08_18h30.41.203,orient_discrimination,2023.1.3,None,
155,0,155,0,245.82070245900013,246.80412070900002,246.81370629200046,up,1,0.4535855829999491,None,0,1,001,2023-09-08_18h30.41.203,orient_discrimination,2023.1.3,None,
156,0,156,0,247.27986512500047,248.263585959,248.26970087500013,up,1,0.4349072069999238,None,0,1,001,2023-09-08_18h30.41.203,orient_discrimination,2023.1.3,None,
157,0,157,0,248.718275792,249.70560958399983,249.71351649999997,down,1,0.64556120799989,None,-4,1,001,2023-09-08_18h30.41.203,orient_discrimination,2023.1.3,None,
158,0,158,0,250.36818462500014,251.35555229199963,251.36353941699963,up,1,0.5921217909999541,None,0,1,001,2023-09-08_18h30.41.203,orient_discrimination,2023.1.3,None,
159,0,159,0,251.96480591700038,252.946962084,252.96424124999976,down,1,0.48023041599935823,None,4,1,001,2023-09-08_18h30.41.203,orient_discrimination,2023.1.3,None,
160,0,160,0,253.44651975000033,254.4306175419997,254.43660558400006,down,1,0.5702038330000505,None,3,1,001,2023-09-08_18h30.41.203,orient_discrimination,2023.1.3,None,
161,0,161,0,255.0180211249999,256.00512133400025,256.01369191699996,up,1,0.6118651659999159,None,0,1,001,2023-09-08_18h30.41.203,orient_discrimination,2023.1.3,None,
162,0,162,0,256.6348425420001,257.6218475839996,257.6304042920001,up,1,0.5724250410003151,None,0,1,001,2023-09-08_18h30.41.203,orient_discrimination,2023.1.3,None,
163,0,163,0,258.21387566700014,259.1972483749996,259.20322725000005,up,1,3.5463649989997066,None,0,1,001,2023-09-08_18h30.41.203,orient_discrimination,2023.1.3,None,
164,0,164,0,262.76482608399965,263.74755595900024,263.7535701249999,up,1,0.6867627909996372,None,0,1,001,2023-09-08_18h30.41.203,orient_discrimination,2023.1.3,None,
165,0,165,0,264.4522718750004,265.4381425419997,265.44796750000023,up,0,0.6937692910005353,None,-3,1,001,2023-09-08_18h30.41.203,orient_discrimination,2023.1.3,None,
166,0,166,0,266.15028600000005,267.1308008750002,267.1479621669996,down,0,0.5097817910000231,None,0,1,001,2023-09-08_18h30.41.203,orient_discrimination,2023.1.3,None,
167,0,167,0,267.66466475000016,268.64764724999986,268.6537306250002,down,1,0.757338415999584,None,-5,1,001,2023-09-08_18h30.41.203,orient_discrimination,2023.1.3,None,
168,0,168,0,269.43135008399986,270.41440470900034,270.4209000000001,down,1,0.6080386240000735,None,2,1,001,2023-09-08_18h30.41.203,orient_discrimination,2023.1.3,None,
169,0,169,0,271.04775395900015,272.0311085000003,272.0370293750002,down,1,0.7508939569997892,None,-5,1,001,2023-09-08_18h30.41.203,orient_discrimination,2023.1.3,None,
170,0,170,0,272.7987395420005,273.7810517500002,273.798325834,down,1,0.43907574900003965,None,-4,1,001,2023-09-08_18h30.41.203,orient_discrimination,2023.1.3,None,
171,0,171,0,274.23556920900046,275.2231965000001,275.2311782500001,up,1,0.4669914579999386,None,0,1,001,2023-09-08_18h30.41.203,orient_discrimination,2023.1.3,None,
172,0,172,0,275.71452958400005,276.6981248339998,276.70415287499964,up,1,0.4835663330004536,None,0,1,001,2023-09-08_18h30.41.203,orient_discrimination,2023.1.3,None,
173,0,173,0,277.19849237499966,278.18132708400026,278.1873450000003,down,1,0.35106941600042774,None,3,1,001,2023-09-08_18h30.41.203,orient_discrimination,2023.1.3,None,
174,0,174,0,278.5493738340001,279.5313591670001,279.54852295900037,up,1,0.6573230820004028,None,0,1,001,2023-09-08_18h30.41.203,orient_discrimination,2023.1.3,None,
175,0,175,0,280.21490279200043,281.19817445900026,281.20425966699986,down,1,0.8847884160004469,None,1,1,001,2023-09-08_18h30.41.203,orient_discrimination,2023.1.3,None,
176,0,176,0,282.1042287500004,283.0901783749996,283.09818216700023,down,1,0.5794690409993564,None,2,1,001,2023-09-08_18h30.41.203,orient_discrimination,2023.1.3,None,
177,0,177,0,283.6866274590002,284.6736008750004,284.6815481249996,up,0,0.805201623999892,None,1,1,001,2023-09-08_18h30.41.203,orient_discrimination,2023.1.3,None,
178,0,178,0,285.4979602499998,286.4814884589996,286.4879569169998,up,0,0.5239339159998053,None,-2,1,001,2023-09-08_18h30.41.203,orient_discrimination,2023.1.3,None,
179,0,179,0,287.0309877090003,288.01503800000046,288.0213285,up,1,0.8767969159998756,None,0,1,001,2023-09-08_18h30.41.203,orient_discrimination,2023.1.3,None,
180,0,180,0,288.9151165840003,289.89863562499977,289.90469287500036,down,0,0.6555127499996161,None,0,1,001,2023-09-08_18h30.41.203,orient_discrimination,2023.1.3,None,
181,0,181,0,290.5698998750004,291.55666612500045,291.5650774169999,up,1,0.5285572910006522,None,0,1,001,2023-09-08_18h30.41.203,orient_discrimination,2023.1.3,None,
182,0,182,0,292.10413733400037,293.09014245900016,293.09849008400033,up,1,0.4760543330003202,None,0,1,001,2023-09-08_18h30.41.203,orient_discrimination,2023.1.3,None,
183,0,183,0,293.5869296669998,294.57398512500004,294.58186829199985,up,1,0.57623650000005,None,0,1,001,2023-09-08_18h30.41.203,orient_discrimination,2023.1.3,None,
184,0,184,0,295.16974825000034,296.1566359999997,296.165323917,down,1,0.46650162399964756,None,3,1,001,2023-09-08_18h30.41.203,orient_discrimination,2023.1.3,None,
185,0,185,0,296.6488460419996,297.6319901249999,297.63809254199987,down,1,0.7244907909998801,None,-3,1,001,2023-09-08_18h30.41.203,orient_discrimination,2023.1.3,None,
186,0,186,0,298.3830242920003,299.3655532499997,299.371453709,up,0,0.4261049990000174,None,1,1,001,2023-09-08_18h30.41.203,orient_discrimination,2023.1.3,None,
187,0,187,0,299.8159385839999,300.79882075000023,300.8047274170003,down,1,0.4950292490002539,None,4,1,001,2023-09-08_18h30.41.203,orient_discrimination,2023.1.3,None,
188,0,188,0,301.31514408400017,302.298811959,302.3055994590004,down,1,0.5109641659992121,None,-2,1,001,2023-09-08_18h30.41.203,orient_discrimination,2023.1.3,None,
189,0,189,0,302.8326610419999,303.8158169999997,303.82173862499985,down,1,0.48305620700011787,None,2,1,001,2023-09-08_18h30.41.203,orient_discrimination,2023.1.3,None,
190,0,190,0,304.3154140839997,305.2990143340003,305.3054285420003,down,1,0.4468302909990598,None,1,1,001,2023-09-08_18h30.41.203,orient_discrimination,2023.1.3,None,
191,0,191,0,305.7660609169998,306.7490931250004,306.75511087500036,up,1,0.7224021239999274,None,0,1,001,2023-09-08_18h30.41.203,orient_discrimination,2023.1.3,None,
192,0,192,0,307.48674779199973,308.47403258400027,308.4824817919998,down,1,0.4757604159995026,None,-5,1,001,2023-09-08_18h30.41.203,orient_discrimination,2023.1.3,None,
193,0,193,0,308.96657975000016,309.94924416699996,309.95512704199973,down,0,0.45066333300019323,None,0,1,001,2023-09-08_18h30.41.203,orient_discrimination,2023.1.3,None,
194,0,194,0,310.4161409170001,311.399473167,311.4053882090002,down,1,0.636930540999856,None,-5,1,001,2023-09-08_18h30.41.203,orient_discrimination,2023.1.3,None,
195,0,195,0,312.05430045899993,313.0410377500002,313.0492857090003,down,1,0.5253816659997028,None,3,1,001,2023-09-08_18h30.41.203,orient_discrimination,2023.1.3,None,
196,0,196,0,313.5832984589997,314.5659027499996,314.5719367920001,down,1,0.4038000410000677,None,-5,1,001,2023-09-08_18h30.41.203,orient_discrimination,2023.1.3,None,
197,0,197,0,314.98749512500035,315.9740110419998,315.9826736670002,down,1,0.4981561659997169,None,-2,1,001,2023-09-08_18h30.41.203,orient_discrimination,2023.1.3,None,
198,0,198,0,316.4878134999999,317.4730117500003,317.4832421250003,down,1,0.3894824579992928,None,-4,1,001,2023-09-08_18h30.41.203,orient_discrimination,2023.1.3,None,
199,0,199,0,317.88286566700026,318.86627362499985,318.8723251669999,down,0,0.3739709999999832,None,0,1,001,2023-09-08_18h30.41.203,orient_discrimination,2023.1.3,None,
